% Michal (michal.segalrozenhaimer@nasa.gov) emailed Yohei this file on June 5, 2013.
Col 1: Pixel number
Col 2: Scaled pixel number
Col 3: Wavelength as derived at GSFC [nm]
Col 4: Wavelength from manufacturer [nm]
Col 5: Wavelength in microns
Col 6: Resolution [nm]
1 -1.727 173.182 171.850 0.173182 14.743 
2 -1.723 173.975 172.670 0.173975 14.577 
3 -1.720 174.768 173.480 0.174768 14.412 
4 -1.717 175.562 174.290 0.175562 14.250 
5 -1.713 176.355 175.100 0.176355 14.088 
6 -1.710 177.149 175.910 0.177149 13.928 
7 -1.707 177.943 176.720 0.177943 13.770 
8 -1.703 178.738 177.540 0.178738 13.612 
9 -1.700 179.532 178.350 0.179532 13.457 
10 -1.697 180.327 179.160 0.180327 13.303 
11 -1.694 181.122 179.970 0.181122 13.150 
12 -1.690 181.917 180.780 0.181917 12.998 
13 -1.687 182.712 181.590 0.182712 12.848 
14 -1.684 183.507 182.410 0.183507 12.699 
15 -1.680 184.303 183.220 0.184303 12.552 
16 -1.677 185.098 184.030 0.185098 12.406 
17 -1.674 185.894 184.840 0.185894 12.262 
18 -1.670 186.690 185.650 0.186690 12.119 
19 -1.667 187.487 186.460 0.187487 11.977 
20 -1.664 188.283 187.280 0.188283 11.836 
21 -1.660 189.080 188.090 0.189080 11.697 
22 -1.657 189.876 188.900 0.189876 11.559 
23 -1.654 190.673 189.710 0.190673 11.423 
24 -1.650 191.470 190.520 0.191470 11.288 
25 -1.647 192.267 191.330 0.192267 11.154 
26 -1.644 193.065 192.140 0.193065 11.021 
27 -1.641 193.862 192.960 0.193862 10.890 
28 -1.637 194.660 193.770 0.194660 10.760 
29 -1.634 195.458 194.580 0.195458 10.631 
30 -1.631 196.256 195.390 0.196256 10.504 
31 -1.627 197.054 196.200 0.197054 10.378 
32 -1.624 197.852 197.010 0.197852 10.253 
33 -1.621 198.650 197.830 0.198650 10.129 
34 -1.617 199.449 198.640 0.199449 10.007 
35 -1.614 200.248 199.450 0.200248 9.886 
36 -1.611 201.046 200.260 0.201046 9.766 
37 -1.607 201.845 201.070 0.201845 9.647 
38 -1.604 202.645 201.880 0.202645 9.530 
39 -1.601 203.444 202.690 0.203444 9.413 
40 -1.597 204.243 203.510 0.204243 9.298 
41 -1.594 205.043 204.320 0.205043 9.184 
42 -1.591 205.842 205.130 0.205842 9.072 
43 -1.587 206.642 205.940 0.206642 8.960 
44 -1.584 207.442 206.750 0.207442 8.850 
45 -1.581 208.242 207.560 0.208242 8.741 
46 -1.578 209.042 208.370 0.209042 8.632 
47 -1.574 209.843 209.180 0.209843 8.526 
48 -1.571 210.643 210.000 0.210643 8.420 
49 -1.568 211.444 210.810 0.211444 8.315 
50 -1.564 212.244 211.620 0.212244 8.212 
51 -1.561 213.045 212.430 0.213045 8.109 
52 -1.558 213.846 213.240 0.213846 8.008 
53 -1.554 214.647 214.050 0.214647 7.908 
54 -1.551 215.448 214.860 0.215448 7.809 
55 -1.548 216.250 215.680 0.216250 7.711 
56 -1.544 217.051 216.490 0.217051 7.614 
57 -1.541 217.853 217.300 0.217853 7.519 
58 -1.538 218.654 218.110 0.218654 7.424 
59 -1.534 219.456 218.920 0.219456 7.330 
60 -1.531 220.258 219.730 0.220258 7.238 
61 -1.528 221.060 220.540 0.221060 7.146 
62 -1.525 221.862 221.350 0.221862 7.056 
63 -1.521 222.664 222.170 0.222664 6.967 
64 -1.518 223.466 222.980 0.223466 6.878 
65 -1.515 224.269 223.790 0.224269 6.791 
66 -1.511 225.071 224.600 0.225071 6.705 
67 -1.508 225.874 225.410 0.225874 6.619 
68 -1.505 226.676 226.220 0.226676 6.535 
69 -1.501 227.479 227.030 0.227479 6.452 
70 -1.498 228.282 227.840 0.228282 6.369 
71 -1.495 229.085 228.650 0.229085 6.288 
72 -1.491 229.888 229.470 0.229888 6.208 
73 -1.488 230.691 230.280 0.230691 6.128 
74 -1.485 231.494 231.090 0.231494 6.050 
75 -1.481 232.298 231.900 0.232298 5.973 
76 -1.478 233.101 232.710 0.233101 5.896 
77 -1.475 233.905 233.520 0.233905 5.821 
78 -1.471 234.708 234.330 0.234708 5.746 
79 -1.468 235.512 235.140 0.235512 5.672 
80 -1.465 236.316 235.950 0.236316 5.600 
81 -1.462 237.120 236.770 0.237120 5.528 
82 -1.458 237.924 237.580 0.237924 5.457 
83 -1.455 238.728 238.390 0.238728 5.387 
84 -1.452 239.532 239.200 0.239532 5.318 
85 -1.448 240.336 240.010 0.240336 5.250 
86 -1.445 241.140 240.820 0.241140 5.182 
87 -1.442 241.945 241.630 0.241945 5.116 
88 -1.438 242.749 242.440 0.242749 5.050 
89 -1.435 243.554 243.250 0.243554 4.986 
90 -1.432 244.358 244.060 0.244358 4.922 
91 -1.428 245.163 244.880 0.245163 4.859 
92 -1.425 245.968 245.690 0.245968 4.797 
93 -1.422 246.773 246.500 0.246773 4.736 
94 -1.418 247.577 247.310 0.247577 4.675 
95 -1.415 248.382 248.120 0.248382 4.616 
96 -1.412 249.187 248.930 0.249187 4.557 
97 -1.409 249.993 249.740 0.249993 4.499 
98 -1.405 250.798 250.550 0.250798 4.442 
99 -1.402 251.603 251.360 0.251603 4.386 
100 -1.399 252.408 252.170 0.252408 4.330 
101 -1.395 253.214 252.980 0.253214 4.275 
102 -1.392 254.019 253.790 0.254019 4.222 
103 -1.389 254.825 254.610 0.254825 4.168 
104 -1.385 255.630 255.420 0.255630 4.116 
105 -1.382 256.436 256.230 0.256436 4.064 
106 -1.379 257.241 257.040 0.257241 4.014 
107 -1.375 258.047 257.850 0.258047 3.964 
108 -1.372 258.853 258.660 0.258853 3.914 
109 -1.369 259.659 259.470 0.259659 3.866 
110 -1.365 260.465 260.280 0.260465 3.818 
111 -1.362 261.271 261.090 0.261271 3.771 
112 -1.359 262.077 261.900 0.262077 3.724 
113 -1.355 262.883 262.710 0.262883 3.679 
114 -1.352 263.689 263.520 0.263689 3.634 
115 -1.349 264.495 264.330 0.264495 3.590 
116 -1.346 265.301 265.140 0.265301 3.546 
117 -1.342 266.108 265.950 0.266108 3.503 
118 -1.339 266.914 266.760 0.266914 3.461 
119 -1.336 267.720 267.580 0.267720 3.420 
120 -1.332 268.527 268.390 0.268527 3.379 
121 -1.329 269.333 269.200 0.269333 3.339 
122 -1.326 270.140 270.010 0.270140 3.300 
123 -1.322 270.946 270.820 0.270946 3.261 
124 -1.319 271.753 271.630 0.271753 3.223 
125 -1.316 272.560 272.440 0.272560 3.185 
126 -1.312 273.366 273.250 0.273366 3.149 
127 -1.309 274.173 274.060 0.274173 3.113 
128 -1.306 274.980 274.870 0.274980 3.077 
129 -1.302 275.787 275.680 0.275787 3.042 
130 -1.299 276.594 276.490 0.276594 3.008 
131 -1.296 277.400 277.300 0.277400 2.974 
132 -1.293 278.207 278.110 0.278207 2.941 
133 -1.289 279.014 278.920 0.279014 2.909 
134 -1.286 279.821 279.730 0.279821 2.877 
135 -1.283 280.628 280.540 0.280628 2.846 
136 -1.279 281.435 281.350 0.281435 2.816 
137 -1.276 282.243 282.160 0.282243 2.786 
138 -1.273 283.050 282.970 0.283050 2.756 
139 -1.269 283.857 283.780 0.283857 2.727 
140 -1.266 284.664 284.590 0.284664 2.699 
141 -1.263 285.471 285.400 0.285471 2.671 
142 -1.259 286.279 286.210 0.286279 2.644 
143 -1.256 287.086 287.020 0.287086 2.618 
144 -1.253 287.893 287.830 0.287893 2.592 
145 -1.249 288.701 288.640 0.288701 2.566 
146 -1.246 289.508 289.450 0.289508 2.541 
147 -1.243 290.316 290.260 0.290316 2.517 
148 -1.240 291.123 291.070 0.291123 2.493 
149 -1.236 291.930 291.880 0.291930 2.470 
150 -1.233 292.738 292.690 0.292738 2.447 
151 -1.230 293.545 293.500 0.293545 2.425 
152 -1.226 294.353 294.310 0.294353 2.403 
153 -1.223 295.161 295.120 0.295161 2.382 
154 -1.220 295.968 295.930 0.295968 2.361 
155 -1.216 296.776 296.740 0.296776 2.341 
156 -1.213 297.583 297.550 0.297583 2.321 
157 -1.210 298.391 298.360 0.298391 2.302 
158 -1.206 299.199 299.170 0.299199 2.283 
159 -1.203 300.006 299.980 0.300006 2.265 
160 -1.200 300.814 300.790 0.300814 2.247 
161 -1.196 301.622 301.600 0.301622 2.229 
162 -1.193 302.430 302.410 0.302430 2.213 
163 -1.190 303.237 303.220 0.303237 2.196 
164 -1.186 304.045 304.030 0.304045 2.180 
165 -1.183 304.853 304.840 0.304853 2.165 
166 -1.180 305.661 305.650 0.305661 2.149 
167 -1.177 306.469 306.460 0.306469 2.135 
168 -1.173 307.276 307.270 0.307276 2.121 
169 -1.170 308.084 308.080 0.308084 2.107 
170 -1.167 308.892 308.890 0.308892 2.093 
171 -1.163 309.700 309.700 0.309700 2.080 
172 -1.160 310.508 310.510 0.310508 2.068 
173 -1.157 311.316 311.320 0.311316 2.056 
174 -1.153 312.124 312.130 0.312124 2.044 
175 -1.150 312.932 312.940 0.312932 2.033 
176 -1.147 313.740 313.750 0.313740 2.022 
177 -1.143 314.548 314.560 0.314548 2.011 
178 -1.140 315.355 315.370 0.315355 2.001 
179 -1.137 316.163 316.180 0.316163 1.991 
180 -1.133 316.971 316.980 0.316971 1.982 
181 -1.130 317.779 317.790 0.317779 1.973 
182 -1.127 318.587 318.600 0.318587 1.964 
183 -1.124 319.395 319.410 0.319395 1.956 
184 -1.120 320.203 320.220 0.320203 1.948 
185 -1.117 321.011 321.030 0.321011 1.941 
186 -1.114 321.819 321.840 0.321819 1.933 
187 -1.110 322.627 322.650 0.322627 1.927 
188 -1.107 323.435 323.460 0.323435 1.920 
189 -1.104 324.243 324.270 0.324243 1.914 
190 -1.100 325.051 325.080 0.325051 1.908 
191 -1.097 325.859 325.890 0.325859 1.903 
192 -1.094 326.667 326.700 0.326667 1.898 
193 -1.090 327.475 327.510 0.327475 1.893 
194 -1.087 328.283 328.310 0.328283 1.888 
195 -1.084 329.091 329.120 0.329091 1.884 
196 -1.080 329.899 329.930 0.329899 1.880 
197 -1.077 330.707 330.740 0.330707 1.877 
198 -1.074 331.515 331.550 0.331515 1.874 
199 -1.070 332.323 332.360 0.332323 1.871 
200 -1.067 333.131 333.170 0.333131 1.868 
201 -1.064 333.939 333.980 0.333939 1.866 
202 -1.061 334.747 334.790 0.334747 1.864 
203 -1.057 335.555 335.600 0.335555 1.862 
204 -1.054 336.363 336.400 0.336363 1.860 
205 -1.051 337.171 337.210 0.337171 1.859 
206 -1.047 337.979 338.020 0.337979 1.858 
207 -1.044 338.787 338.830 0.338787 1.858 
208 -1.041 339.595 339.640 0.339595 1.857 
209 -1.037 340.403 340.450 0.340403 1.857 
210 -1.034 341.211 341.260 0.341211 1.857 
211 -1.031 342.019 342.070 0.342019 1.858 
212 -1.027 342.827 342.870 0.342827 1.858 
213 -1.024 343.635 343.680 0.343635 1.859 
214 -1.021 344.443 344.490 0.344443 1.860 
215 -1.017 345.251 345.300 0.345251 1.862 
216 -1.014 346.058 346.110 0.346058 1.863 
217 -1.011 346.866 346.920 0.346866 1.865 
218 -1.008 347.674 347.730 0.347674 1.867 
219 -1.004 348.482 348.530 0.348482 1.870 
220 -1.001 349.290 349.340 0.349290 1.872 
221 -0.998 350.098 350.150 0.350098 1.875 
222 -0.994 350.905 350.960 0.350905 1.878 
223 -0.991 351.713 351.770 0.351713 1.881 
224 -0.988 352.521 352.580 0.352521 1.884 
225 -0.984 353.329 353.390 0.353329 1.888 
226 -0.981 354.137 354.190 0.354137 1.892 
227 -0.978 354.944 355.000 0.354944 1.896 
228 -0.974 355.752 355.810 0.355752 1.900 
229 -0.971 356.560 356.620 0.356560 1.904 
230 -0.968 357.368 357.430 0.357368 1.909 
231 -0.964 358.175 358.240 0.358175 1.914 
232 -0.961 358.983 359.040 0.358983 1.919 
233 -0.958 359.791 359.850 0.359791 1.924 
234 -0.954 360.598 360.660 0.360598 1.929 
235 -0.951 361.406 361.470 0.361406 1.935 
236 -0.948 362.214 362.280 0.362214 1.940 
237 -0.945 363.021 363.080 0.363021 1.946 
238 -0.941 363.829 363.890 0.363829 1.952 
239 -0.938 364.636 364.700 0.364636 1.958 
240 -0.935 365.444 365.510 0.365444 1.965 
241 -0.931 366.251 366.320 0.366251 1.971 
242 -0.928 367.059 367.120 0.367059 1.978 
243 -0.925 367.866 367.930 0.367866 1.985 
244 -0.921 368.674 368.740 0.368674 1.992 
245 -0.918 369.481 369.550 0.369481 1.999 
246 -0.915 370.289 370.360 0.370289 2.006 
247 -0.911 371.096 371.160 0.371096 2.013 
248 -0.908 371.903 371.970 0.371903 2.021 
249 -0.905 372.711 372.780 0.372711 2.028 
250 -0.901 373.518 373.590 0.373518 2.036 
251 -0.898 374.325 374.390 0.374325 2.044 
252 -0.895 375.133 375.200 0.375133 2.052 
253 -0.892 375.940 376.010 0.375940 2.060 
254 -0.888 376.747 376.820 0.376747 2.068 
255 -0.885 377.555 377.630 0.377555 2.077 
256 -0.882 378.362 378.430 0.378362 2.085 
257 -0.878 379.169 379.240 0.379169 2.094 
258 -0.875 379.976 380.050 0.379976 2.103 
259 -0.872 380.783 380.860 0.380783 2.111 
260 -0.868 381.590 381.660 0.381590 2.120 
261 -0.865 382.397 382.470 0.382397 2.129 
262 -0.862 383.205 383.280 0.383205 2.138 
263 -0.858 384.012 384.080 0.384012 2.148 
264 -0.855 384.819 384.890 0.384819 2.157 
265 -0.852 385.626 385.700 0.385626 2.166 
266 -0.848 386.433 386.510 0.386433 2.176 
267 -0.845 387.240 387.310 0.387240 2.185 
268 -0.842 388.046 388.120 0.388046 2.195 
269 -0.838 388.853 388.930 0.388853 2.205 
270 -0.835 389.660 389.740 0.389660 2.214 
271 -0.832 390.467 390.540 0.390467 2.224 
272 -0.829 391.274 391.350 0.391274 2.234 
273 -0.825 392.081 392.160 0.392081 2.244 
274 -0.822 392.887 392.960 0.392887 2.254 
275 -0.819 393.694 393.770 0.393694 2.264 
276 -0.815 394.501 394.580 0.394501 2.274 
277 -0.812 395.308 395.380 0.395308 2.285 
278 -0.809 396.114 396.190 0.396114 2.295 
279 -0.805 396.921 397.000 0.396921 2.305 
280 -0.802 397.727 397.810 0.397727 2.316 
281 -0.799 398.534 398.610 0.398534 2.326 
282 -0.795 399.340 399.420 0.399340 2.337 
283 -0.792 400.147 400.230 0.400147 2.347 
284 -0.789 400.953 401.030 0.400953 2.358 
285 -0.785 401.760 401.840 0.401760 2.369 
286 -0.782 402.566 402.650 0.402566 2.379 
287 -0.779 403.373 403.450 0.403373 2.390 
288 -0.776 404.179 404.260 0.404179 2.401 
289 -0.772 404.985 405.070 0.404985 2.412 
290 -0.769 405.792 405.870 0.405792 2.423 
291 -0.766 406.598 406.680 0.406598 2.433 
292 -0.762 407.404 407.490 0.407404 2.444 
293 -0.759 408.210 408.290 0.408210 2.455 
294 -0.756 409.017 409.100 0.409017 2.466 
295 -0.752 409.823 409.900 0.409823 2.477 
296 -0.749 410.629 410.710 0.410629 2.488 
297 -0.746 411.435 411.520 0.411435 2.499 
298 -0.742 412.241 412.320 0.412241 2.510 
299 -0.739 413.047 413.130 0.413047 2.521 
300 -0.736 413.853 413.940 0.413853 2.532 
301 -0.732 414.659 414.740 0.414659 2.543 
302 -0.729 415.465 415.550 0.415465 2.554 
303 -0.726 416.271 416.350 0.416271 2.565 
304 -0.722 417.076 417.160 0.417076 2.576 
305 -0.719 417.882 417.970 0.417882 2.588 
306 -0.716 418.688 418.770 0.418688 2.599 
307 -0.713 419.494 419.580 0.419494 2.610 
308 -0.709 420.300 420.380 0.420300 2.621 
309 -0.706 421.105 421.190 0.421105 2.632 
310 -0.703 421.911 422.000 0.421911 2.643 
311 -0.699 422.717 422.800 0.422717 2.654 
312 -0.696 423.522 423.610 0.423522 2.665 
313 -0.693 424.328 424.410 0.424328 2.676 
314 -0.689 425.133 425.220 0.425133 2.687 
315 -0.686 425.939 426.030 0.425939 2.698 
316 -0.683 426.744 426.830 0.426744 2.709 
317 -0.679 427.549 427.640 0.427549 2.720 
318 -0.676 428.355 428.440 0.428355 2.731 
319 -0.673 429.160 429.250 0.429160 2.742 
320 -0.669 429.965 430.050 0.429965 2.753 
321 -0.666 430.771 430.860 0.430771 2.764 
322 -0.663 431.576 431.660 0.431576 2.775 
323 -0.660 432.381 432.470 0.432381 2.786 
324 -0.656 433.186 433.280 0.433186 2.796 
325 -0.653 433.991 434.080 0.433991 2.807 
326 -0.650 434.797 434.890 0.434797 2.818 
327 -0.646 435.602 435.690 0.435602 2.829 
328 -0.643 436.407 436.500 0.436407 2.839 
329 -0.640 437.212 437.300 0.437212 2.850 
330 -0.636 438.017 438.110 0.438017 2.861 
331 -0.633 438.821 438.910 0.438821 2.871 
332 -0.630 439.626 439.720 0.439626 2.882 
333 -0.626 440.431 440.520 0.440431 2.892 
334 -0.623 441.236 441.330 0.441236 2.903 
335 -0.620 442.041 442.130 0.442041 2.913 
336 -0.616 442.845 442.940 0.442845 2.924 
337 -0.613 443.650 443.740 0.443650 2.934 
338 -0.610 444.455 444.550 0.444455 2.944 
339 -0.606 445.259 445.350 0.445259 2.954 
340 -0.603 446.064 446.160 0.446064 2.965 
341 -0.600 446.868 446.960 0.446868 2.975 
342 -0.597 447.673 447.770 0.447673 2.985 
343 -0.593 448.477 448.570 0.448477 2.995 
344 -0.590 449.282 449.380 0.449282 3.005 
345 -0.587 450.086 450.180 0.450086 3.015 
346 -0.583 450.891 450.990 0.450891 3.025 
347 -0.580 451.695 451.790 0.451695 3.034 
348 -0.577 452.499 452.600 0.452499 3.044 
349 -0.573 453.303 453.400 0.453303 3.054 
350 -0.570 454.108 454.200 0.454108 3.063 
351 -0.567 454.912 455.010 0.454912 3.073 
352 -0.563 455.716 455.810 0.455716 3.082 
353 -0.560 456.520 456.620 0.456520 3.092 
354 -0.557 457.324 457.420 0.457324 3.101 
355 -0.553 458.128 458.230 0.458128 3.111 
356 -0.550 458.932 459.030 0.458932 3.120 
357 -0.547 459.736 459.830 0.459736 3.129 
358 -0.544 460.540 460.640 0.460540 3.138 
359 -0.540 461.344 461.440 0.461344 3.147 
360 -0.537 462.147 462.250 0.462147 3.156 
361 -0.534 462.951 463.050 0.462951 3.165 
362 -0.530 463.755 463.860 0.463755 3.174 
363 -0.527 464.559 464.660 0.464559 3.183 
364 -0.524 465.362 465.460 0.465362 3.191 
365 -0.520 466.166 466.270 0.466166 3.200 
366 -0.517 466.969 467.070 0.466969 3.208 
367 -0.514 467.773 467.870 0.467773 3.217 
368 -0.510 468.576 468.680 0.468576 3.225 
369 -0.507 469.380 469.480 0.469380 3.233 
370 -0.504 470.183 470.290 0.470183 3.242 
371 -0.500 470.987 471.090 0.470987 3.250 
372 -0.497 471.790 471.890 0.471790 3.258 
373 -0.494 472.593 472.700 0.472593 3.266 
374 -0.490 473.396 473.500 0.473396 3.274 
375 -0.487 474.200 474.300 0.474200 3.282 
376 -0.484 475.003 475.110 0.475003 3.289 
377 -0.481 475.806 475.910 0.475806 3.297 
378 -0.477 476.609 476.710 0.476609 3.304 
379 -0.474 477.412 477.520 0.477412 3.312 
380 -0.471 478.215 478.320 0.478215 3.319 
381 -0.467 479.018 479.120 0.479018 3.327 
382 -0.464 479.821 479.930 0.479821 3.334 
383 -0.461 480.624 480.730 0.480624 3.341 
384 -0.457 481.427 481.530 0.481427 3.348 
385 -0.454 482.229 482.340 0.482229 3.355 
386 -0.451 483.032 483.140 0.483032 3.362 
387 -0.447 483.835 483.940 0.483835 3.368 
388 -0.444 484.638 484.750 0.484638 3.375 
389 -0.441 485.440 485.550 0.485440 3.382 
390 -0.437 486.243 486.350 0.486243 3.388 
391 -0.434 487.045 487.160 0.487045 3.395 
392 -0.431 487.848 487.960 0.487848 3.401 
393 -0.428 488.650 488.760 0.488650 3.407 
394 -0.424 489.453 489.560 0.489453 3.413 
395 -0.421 490.255 490.370 0.490255 3.419 
396 -0.418 491.057 491.170 0.491057 3.425 
397 -0.414 491.860 491.970 0.491860 3.431 
398 -0.411 492.662 492.770 0.492662 3.437 
399 -0.408 493.464 493.580 0.493464 3.442 
400 -0.404 494.266 494.380 0.494266 3.448 
401 -0.401 495.068 495.180 0.495068 3.453 
402 -0.398 495.871 495.980 0.495871 3.459 
403 -0.394 496.673 496.790 0.496673 3.464 
404 -0.391 497.475 497.590 0.497475 3.469 
405 -0.388 498.277 498.390 0.498277 3.474 
406 -0.384 499.079 499.190 0.499079 3.479 
407 -0.381 499.880 500.000 0.499880 3.484 
408 -0.378 500.682 500.800 0.500682 3.489 
409 -0.375 501.484 501.600 0.501484 3.493 
410 -0.371 502.286 502.400 0.502286 3.498 
411 -0.368 503.087 503.200 0.503087 3.502 
412 -0.365 503.889 504.010 0.503889 3.507 
413 -0.361 504.691 504.810 0.504691 3.511 
414 -0.358 505.492 505.610 0.505492 3.515 
415 -0.355 506.294 506.410 0.506294 3.519 
416 -0.351 507.095 507.210 0.507095 3.523 
417 -0.348 507.897 508.020 0.507897 3.527 
418 -0.345 508.698 508.820 0.508698 3.531 
419 -0.341 509.500 509.620 0.509500 3.535 
420 -0.338 510.301 510.420 0.510301 3.538 
421 -0.335 511.102 511.220 0.511102 3.542 
422 -0.331 511.903 512.020 0.511903 3.545 
423 -0.328 512.705 512.830 0.512705 3.548 
424 -0.325 513.506 513.630 0.513506 3.551 
425 -0.321 514.307 514.430 0.514307 3.554 
426 -0.318 515.108 515.230 0.515108 3.557 
427 -0.315 515.909 516.030 0.515909 3.560 
428 -0.312 516.710 516.830 0.516710 3.563 
429 -0.308 517.511 517.630 0.517511 3.566 
430 -0.305 518.312 518.440 0.518312 3.568 
431 -0.302 519.113 519.240 0.519113 3.571 
432 -0.298 519.913 520.040 0.519913 3.573 
433 -0.295 520.714 520.840 0.520714 3.575 
434 -0.292 521.515 521.640 0.521515 3.577 
435 -0.288 522.316 522.440 0.522316 3.579 
436 -0.285 523.116 523.240 0.523116 3.581 
437 -0.282 523.917 524.040 0.523917 3.583 
438 -0.278 524.717 524.840 0.524717 3.585 
439 -0.275 525.518 525.640 0.525518 3.586 
440 -0.272 526.318 526.450 0.526318 3.588 
441 -0.268 527.119 527.250 0.527119 3.589 
442 -0.265 527.919 528.050 0.527919 3.591 
443 -0.262 528.719 528.850 0.528719 3.592 
444 -0.259 529.520 529.650 0.529520 3.593 
445 -0.255 530.320 530.450 0.530320 3.594 
446 -0.252 531.120 531.250 0.531120 3.595 
447 -0.249 531.920 532.050 0.531920 3.596 
448 -0.245 532.720 532.850 0.532720 3.596 
449 -0.242 533.520 533.650 0.533520 3.597 
450 -0.239 534.321 534.450 0.534321 3.597 
451 -0.235 535.120 535.250 0.535120 3.598 
452 -0.232 535.920 536.050 0.535920 3.598 
453 -0.229 536.720 536.850 0.536720 3.598 
454 -0.225 537.520 537.650 0.537520 3.598 
455 -0.222 538.320 538.450 0.538320 3.598 
456 -0.219 539.120 539.250 0.539120 3.598 
457 -0.215 539.919 540.050 0.539919 3.598 
458 -0.212 540.719 540.850 0.540719 3.598 
459 -0.209 541.519 541.650 0.541519 3.597 
460 -0.205 542.318 542.450 0.542318 3.597 
461 -0.202 543.118 543.250 0.543118 3.596 
462 -0.199 543.917 544.050 0.543917 3.596 
463 -0.196 544.717 544.850 0.544717 3.595 
464 -0.192 545.516 545.650 0.545516 3.594 
465 -0.189 546.315 546.450 0.546315 3.593 
466 -0.186 547.115 547.250 0.547115 3.592 
467 -0.182 547.914 548.050 0.547914 3.591 
468 -0.179 548.713 548.850 0.548713 3.589 
469 -0.176 549.512 549.650 0.549512 3.588 
470 -0.172 550.312 550.450 0.550312 3.586 
471 -0.169 551.111 551.250 0.551111 3.585 
472 -0.166 551.910 552.050 0.551910 3.583 
473 -0.162 552.709 552.840 0.552709 3.581 
474 -0.159 553.508 553.640 0.553508 3.579 
475 -0.156 554.307 554.440 0.554307 3.578 
476 -0.152 555.105 555.240 0.555105 3.575 
477 -0.149 555.904 556.040 0.555904 3.573 
478 -0.146 556.703 556.840 0.556703 3.571 
479 -0.143 557.502 557.640 0.557502 3.569 
480 -0.139 558.300 558.440 0.558300 3.566 
481 -0.136 559.099 559.240 0.559099 3.564 
482 -0.133 559.898 560.040 0.559898 3.561 
483 -0.129 560.696 560.830 0.560696 3.558 
484 -0.126 561.495 561.630 0.561495 3.556 
485 -0.123 562.293 562.430 0.562293 3.553 
486 -0.119 563.092 563.230 0.563092 3.550 
487 -0.116 563.890 564.030 0.563890 3.547 
488 -0.113 564.688 564.830 0.564688 3.544 
489 -0.109 565.487 565.630 0.565487 3.540 
490 -0.106 566.285 566.420 0.566285 3.537 
491 -0.103 567.083 567.220 0.567083 3.534 
492 -0.099 567.881 568.020 0.567881 3.530 
493 -0.096 568.679 568.820 0.568679 3.527 
494 -0.093 569.477 569.620 0.569477 3.523 
495 -0.089 570.275 570.420 0.570275 3.519 
496 -0.086 571.073 571.210 0.571073 3.515 
497 -0.083 571.871 572.010 0.571871 3.511 
498 -0.080 572.669 572.810 0.572669 3.507 
499 -0.076 573.467 573.610 0.573467 3.503 
500 -0.073 574.264 574.410 0.574264 3.499 
501 -0.070 575.062 575.200 0.575062 3.495 
502 -0.066 575.860 576.000 0.575860 3.490 
503 -0.063 576.657 576.800 0.576657 3.486 
504 -0.060 577.455 577.600 0.577455 3.481 
505 -0.056 578.253 578.390 0.578253 3.477 
506 -0.053 579.050 579.190 0.579050 3.472 
507 -0.050 579.848 579.990 0.579848 3.467 
508 -0.046 580.645 580.790 0.580645 3.463 
509 -0.043 581.442 581.580 0.581442 3.458 
510 -0.040 582.240 582.380 0.582240 3.453 
511 -0.036 583.037 583.180 0.583037 3.448 
512 -0.033 583.834 583.980 0.583834 3.443 
513 -0.030 584.631 584.770 0.584631 3.437 
514 -0.027 585.428 585.570 0.585428 3.432 
515 -0.023 586.225 586.370 0.586225 3.427 
516 -0.020 587.022 587.160 0.587022 3.421 
517 -0.017 587.819 587.960 0.587819 3.416 
518 -0.013 588.616 588.760 0.588616 3.410 
519 -0.010 589.413 589.550 0.589413 3.405 
520 -0.007 590.210 590.350 0.590210 3.399 
521 -0.003 591.007 591.150 0.591007 3.393 
522 0.000 591.803 591.950 0.591804 3.387 
523 0.003 592.600 592.740 0.592600 3.381 
524 0.007 593.397 593.540 0.593397 3.375 
525 0.010 594.193 594.330 0.594193 3.369 
526 0.013 594.990 595.130 0.594990 3.363 
527 0.017 595.786 595.930 0.595786 3.357 
528 0.020 596.583 596.720 0.596583 3.351 
529 0.023 597.379 597.520 0.597379 3.344 
530 0.027 598.176 598.320 0.598176 3.338 
531 0.030 598.972 599.110 0.598972 3.331 
532 0.033 599.768 599.910 0.599768 3.325 
533 0.036 600.564 600.710 0.600564 3.318 
534 0.040 601.361 601.500 0.601361 3.312 
535 0.043 602.157 602.300 0.602157 3.305 
536 0.046 602.953 603.090 0.602953 3.298 
537 0.050 603.749 603.890 0.603749 3.291 
538 0.053 604.545 604.690 0.604545 3.285 
539 0.056 605.341 605.480 0.605341 3.278 
540 0.060 606.137 606.280 0.606137 3.271 
541 0.063 606.932 607.070 0.606932 3.264 
542 0.066 607.728 607.870 0.607728 3.257 
543 0.070 608.524 608.660 0.608524 3.249 
544 0.073 609.320 609.460 0.609320 3.242 
545 0.076 610.115 610.250 0.610115 3.235 
546 0.080 610.911 611.050 0.610911 3.228 
547 0.083 611.706 611.850 0.611706 3.220 
548 0.086 612.502 612.640 0.612502 3.213 
549 0.089 613.297 613.440 0.613297 3.205 
550 0.093 614.093 614.230 0.614093 3.198 
551 0.096 614.888 615.030 0.614888 3.190 
552 0.099 615.683 615.820 0.615683 3.183 
553 0.103 616.478 616.620 0.616478 3.175 
554 0.106 617.274 617.410 0.617274 3.168 
555 0.109 618.069 618.210 0.618069 3.160 
556 0.113 618.864 619.000 0.618864 3.152 
557 0.116 619.659 619.800 0.619659 3.144 
558 0.119 620.454 620.590 0.620454 3.136 
559 0.123 621.249 621.390 0.621249 3.128 
560 0.126 622.044 622.180 0.622044 3.121 
561 0.129 622.839 622.970 0.622839 3.113 
562 0.133 623.633 623.770 0.623633 3.105 
563 0.136 624.428 624.560 0.624428 3.096 
564 0.139 625.223 625.360 0.625223 3.088 
565 0.143 626.017 626.150 0.626017 3.080 
566 0.146 626.812 626.950 0.626812 3.072 
567 0.149 627.607 627.740 0.627607 3.064 
568 0.152 628.401 628.530 0.628401 3.056 
569 0.156 629.195 629.330 0.629195 3.047 
570 0.159 629.990 630.120 0.629990 3.039 
571 0.162 630.784 630.920 0.630784 3.031 
572 0.166 631.578 631.710 0.631578 3.022 
573 0.169 632.373 632.500 0.632373 3.014 
574 0.172 633.167 633.300 0.633167 3.006 
575 0.176 633.961 634.090 0.633961 2.997 
576 0.179 634.755 634.890 0.634755 2.989 
577 0.182 635.549 635.680 0.635549 2.980 
578 0.186 636.343 636.470 0.636343 2.972 
579 0.189 637.137 637.270 0.637137 2.963 
580 0.192 637.931 638.060 0.637931 2.955 
581 0.196 638.725 638.850 0.638725 2.946 
582 0.199 639.518 639.650 0.639518 2.938 
583 0.202 640.312 640.440 0.640312 2.929 
584 0.205 641.106 641.230 0.641106 2.920 
585 0.209 641.899 642.030 0.641899 2.912 
586 0.212 642.693 642.820 0.642693 2.903 
587 0.215 643.486 643.610 0.643486 2.894 
588 0.219 644.280 644.410 0.644280 2.886 
589 0.222 645.073 645.200 0.645073 2.877 
590 0.225 645.867 645.990 0.645867 2.868 
591 0.229 646.660 646.780 0.646660 2.860 
592 0.232 647.453 647.580 0.647453 2.851 
593 0.235 648.246 648.370 0.648246 2.842 
594 0.239 649.039 649.160 0.649039 2.833 
595 0.242 649.833 649.960 0.649833 2.825 
596 0.245 650.626 650.750 0.650626 2.816 
597 0.249 651.419 651.540 0.651419 2.807 
598 0.252 652.211 652.330 0.652211 2.798 
599 0.255 653.004 653.120 0.653004 2.789 
600 0.259 653.797 653.920 0.653797 2.781 
601 0.262 654.590 654.710 0.654590 2.772 
602 0.265 655.383 655.500 0.655383 2.763 
603 0.268 656.175 656.290 0.656175 2.754 
604 0.272 656.968 657.090 0.656968 2.745 
605 0.275 657.760 657.880 0.657760 2.737 
606 0.278 658.553 658.670 0.658553 2.728 
607 0.282 659.345 659.460 0.659345 2.719 
608 0.285 660.138 660.250 0.660138 2.710 
609 0.288 660.930 661.040 0.660930 2.701 
610 0.292 661.722 661.840 0.661722 2.693 
611 0.295 662.515 662.630 0.662515 2.684 
612 0.298 663.307 663.420 0.663307 2.675 
613 0.302 664.099 664.210 0.664099 2.666 
614 0.305 664.891 665.000 0.664891 2.658 
615 0.308 665.683 665.790 0.665683 2.649 
616 0.312 666.475 666.590 0.666475 2.640 
617 0.315 667.267 667.380 0.667267 2.631 
618 0.318 668.058 668.170 0.668058 2.623 
619 0.321 668.850 668.960 0.668850 2.614 
620 0.325 669.642 669.750 0.669642 2.605 
621 0.328 670.434 670.540 0.670434 2.597 
622 0.331 671.225 671.330 0.671225 2.588 
623 0.335 672.017 672.120 0.672017 2.580 
624 0.338 672.808 672.910 0.672808 2.571 
625 0.341 673.600 673.700 0.673600 2.562 
626 0.345 674.391 674.490 0.674391 2.554 
627 0.348 675.182 675.290 0.675182 2.545 
628 0.351 675.974 676.080 0.675974 2.537 
629 0.355 676.765 676.870 0.676765 2.528 
630 0.358 677.556 677.660 0.677556 2.520 
631 0.361 678.347 678.450 0.678347 2.511 
632 0.365 679.138 679.240 0.679138 2.503 
633 0.368 679.929 680.030 0.679929 2.495 
634 0.371 680.720 680.820 0.680720 2.486 
635 0.375 681.511 681.610 0.681511 2.478 
636 0.378 682.302 682.400 0.682302 2.470 
637 0.381 683.092 683.190 0.683092 2.462 
638 0.384 683.883 683.980 0.683883 2.453 
639 0.388 684.674 684.770 0.684674 2.445 
640 0.391 685.464 685.560 0.685464 2.437 
641 0.394 686.255 686.350 0.686255 2.429 
642 0.398 687.045 687.140 0.687045 2.421 
643 0.401 687.836 687.930 0.687836 2.413 
644 0.404 688.626 688.720 0.688626 2.405 
645 0.408 689.416 689.500 0.689416 2.397 
646 0.411 690.206 690.290 0.690206 2.389 
647 0.414 690.997 691.080 0.690997 2.381 
648 0.418 691.787 691.870 0.691787 2.373 
649 0.421 692.577 692.660 0.692577 2.366 
650 0.424 693.367 693.450 0.693367 2.358 
651 0.428 694.157 694.240 0.694157 2.350 
652 0.431 694.946 695.030 0.694946 2.342 
653 0.434 695.736 695.820 0.695736 2.335 
654 0.437 696.526 696.610 0.696526 2.327 
655 0.441 697.316 697.400 0.697316 2.320 
656 0.444 698.105 698.180 0.698105 2.312 
657 0.447 698.895 698.970 0.698895 2.305 
658 0.451 699.684 699.760 0.699684 2.298 
659 0.454 700.474 700.550 0.700474 2.290 
660 0.457 701.263 701.340 0.701263 2.283 
661 0.461 702.052 702.130 0.702052 2.276 
662 0.464 702.842 702.920 0.702842 2.269 
663 0.467 703.631 703.700 0.703631 2.262 
664 0.471 704.420 704.490 0.704420 2.255 
665 0.474 705.209 705.280 0.705209 2.248 
666 0.477 705.998 706.070 0.705998 2.241 
667 0.481 706.787 706.860 0.706787 2.234 
668 0.484 707.576 707.640 0.707576 2.227 
669 0.487 708.365 708.430 0.708365 2.221 
670 0.490 709.153 709.220 0.709153 2.214 
671 0.494 709.942 710.010 0.709942 2.207 
672 0.497 710.731 710.790 0.710731 2.201 
673 0.500 711.519 711.580 0.711519 2.194 
674 0.504 712.308 712.370 0.712308 2.188 
675 0.507 713.096 713.160 0.713096 2.182 
676 0.510 713.884 713.940 0.713884 2.176 
677 0.514 714.673 714.730 0.714673 2.169 
678 0.517 715.461 715.520 0.715461 2.163 
679 0.520 716.249 716.310 0.716249 2.157 
680 0.524 717.037 717.090 0.717037 2.151 
681 0.527 717.825 717.880 0.717825 2.145 
682 0.530 718.613 718.670 0.718613 2.140 
683 0.534 719.401 719.450 0.719401 2.134 
684 0.537 720.189 720.240 0.720189 2.128 
685 0.540 720.977 721.030 0.720977 2.123 
686 0.544 721.764 721.810 0.721764 2.117 
687 0.547 722.552 722.600 0.722552 2.112 
688 0.550 723.340 723.390 0.723340 2.107 
689 0.553 724.127 724.170 0.724127 2.101 
690 0.557 724.915 724.960 0.724915 2.096 
691 0.560 725.702 725.750 0.725702 2.091 
692 0.563 726.489 726.530 0.726489 2.086 
693 0.567 727.277 727.320 0.727277 2.081 
694 0.570 728.064 728.110 0.728064 2.076 
695 0.573 728.851 728.890 0.728851 2.072 
696 0.577 729.638 729.680 0.729638 2.067 
697 0.580 730.425 730.460 0.730425 2.062 
698 0.583 731.212 731.250 0.731212 2.058 
699 0.587 731.999 732.040 0.731999 2.053 
700 0.590 732.785 732.820 0.732785 2.049 
701 0.593 733.572 733.610 0.733572 2.045 
702 0.597 734.359 734.390 0.734359 2.041 
703 0.600 735.145 735.180 0.735145 2.037 
704 0.603 735.932 735.960 0.735932 2.033 
705 0.606 736.718 736.750 0.736718 2.029 
706 0.610 737.505 737.530 0.737505 2.025 
707 0.613 738.291 738.320 0.738291 2.022 
708 0.616 739.077 739.100 0.739077 2.018 
709 0.620 739.863 739.890 0.739863 2.015 
710 0.623 740.650 740.670 0.740650 2.011 
711 0.626 741.436 741.460 0.741436 2.008 
712 0.630 742.221 742.240 0.742221 2.005 
713 0.633 743.007 743.030 0.743007 2.002 
714 0.636 743.793 743.810 0.743793 1.999 
715 0.640 744.579 744.600 0.744579 1.996 
716 0.643 745.365 745.380 0.745365 1.993 
717 0.646 746.150 746.170 0.746150 1.991 
718 0.650 746.936 746.950 0.746936 1.988 
719 0.653 747.721 747.740 0.747721 1.986 
720 0.656 748.507 748.520 0.748507 1.984 
721 0.660 749.292 749.300 0.749292 1.981 
722 0.663 750.077 750.090 0.750077 1.979 
723 0.666 750.862 750.870 0.750862 1.977 
724 0.669 751.647 751.660 0.751647 1.975 
725 0.673 752.432 752.440 0.752432 1.974 
726 0.676 753.217 753.220 0.753217 1.972 
727 0.679 754.002 754.010 0.754002 1.970 
728 0.683 754.787 754.790 0.754787 1.969 
729 0.686 755.572 755.580 0.755572 1.968 
730 0.689 756.357 756.360 0.756357 1.967 
731 0.693 757.141 757.140 0.757141 1.965 
732 0.696 757.926 757.930 0.757926 1.964 
733 0.699 758.710 758.710 0.758710 1.964 
734 0.703 759.494 759.490 0.759494 1.963 
735 0.706 760.279 760.280 0.760279 1.962 
736 0.709 761.063 761.060 0.761063 1.962 
737 0.713 761.847 761.840 0.761847 1.961 
738 0.716 762.631 762.630 0.762631 1.961 
739 0.719 763.415 763.410 0.763415 1.961 
740 0.722 764.199 764.190 0.764199 1.961 
741 0.726 764.983 764.970 0.764983 1.961 
742 0.729 765.767 765.760 0.765767 1.961 
743 0.732 766.551 766.540 0.766551 1.962 
744 0.736 767.334 767.320 0.767334 1.962 
745 0.739 768.118 768.100 0.768118 1.963 
746 0.742 768.901 768.890 0.768901 1.964 
747 0.746 769.685 769.670 0.769685 1.964 
748 0.749 770.468 770.450 0.770468 1.965 
749 0.752 771.251 771.230 0.771251 1.966 
750 0.756 772.034 772.020 0.772034 1.968 
751 0.759 772.817 772.800 0.772817 1.969 
752 0.762 773.600 773.580 0.773600 1.971 
753 0.766 774.383 774.360 0.774383 1.972 
754 0.769 775.166 775.140 0.775166 1.974 
755 0.772 775.949 775.920 0.775949 1.976 
756 0.776 776.732 776.710 0.776732 1.978 
757 0.779 777.514 777.490 0.777514 1.980 
758 0.782 778.297 778.270 0.778297 1.982 
759 0.785 779.079 779.050 0.779079 1.985 
760 0.789 779.862 779.830 0.779862 1.987 
761 0.792 780.644 780.610 0.780644 1.990 
762 0.795 781.426 781.390 0.781426 1.993 
763 0.799 782.209 782.180 0.782209 1.996 
764 0.802 782.991 782.960 0.782991 1.999 
765 0.805 783.773 783.740 0.783773 2.002 
766 0.809 784.555 784.520 0.784555 2.005 
767 0.812 785.336 785.300 0.785336 2.009 
768 0.815 786.118 786.080 0.786118 2.013 
769 0.819 786.900 786.860 0.786900 2.016 
770 0.822 787.681 787.640 0.787681 2.020 
771 0.825 788.463 788.420 0.788463 2.024 
772 0.829 789.244 789.200 0.789244 2.029 
773 0.832 790.026 789.980 0.790026 2.033 
774 0.835 790.807 790.760 0.790807 2.037 
775 0.838 791.588 791.540 0.791588 2.042 
776 0.842 792.369 792.320 0.792369 2.047 
777 0.845 793.150 793.100 0.793150 2.052 
778 0.848 793.931 793.880 0.793931 2.057 
779 0.852 794.712 794.660 0.794712 2.062 
780 0.855 795.493 795.440 0.795493 2.067 
781 0.858 796.274 796.220 0.796274 2.073 
782 0.862 797.054 797.000 0.797054 2.078 
783 0.865 797.835 797.780 0.797835 2.084 
784 0.868 798.615 798.560 0.798615 2.090 
785 0.872 799.396 799.340 0.799396 2.096 
786 0.875 800.176 800.120 0.800176 2.102 
787 0.878 800.956 800.900 0.800956 2.109 
788 0.882 801.736 801.680 0.801736 2.115 
789 0.885 802.516 802.460 0.802516 2.122 
790 0.888 803.296 803.240 0.803296 2.129 
791 0.892 804.076 804.010 0.804076 2.136 
792 0.895 804.856 804.790 0.804856 2.143 
793 0.898 805.636 805.570 0.805636 2.150 
794 0.901 806.415 806.350 0.806415 2.158 
795 0.905 807.195 807.130 0.807195 2.165 
796 0.908 807.974 807.910 0.807974 2.173 
797 0.911 808.754 808.690 0.808754 2.181 
798 0.915 809.533 809.470 0.809533 2.189 
799 0.918 810.312 810.240 0.810312 2.197 
800 0.921 811.091 811.020 0.811091 2.205 
801 0.925 811.870 811.800 0.811870 2.214 
802 0.928 812.649 812.580 0.812649 2.222 
803 0.931 813.428 813.360 0.813428 2.231 
804 0.935 814.207 814.130 0.814207 2.240 
805 0.938 814.986 814.910 0.814986 2.249 
806 0.941 815.764 815.690 0.815764 2.258 
807 0.945 816.543 816.470 0.816543 2.268 
808 0.948 817.321 817.240 0.817321 2.277 
809 0.951 818.100 818.020 0.818100 2.287 
810 0.954 818.878 818.800 0.818878 2.297 
811 0.958 819.656 819.580 0.819656 2.307 
812 0.961 820.434 820.350 0.820434 2.317 
813 0.964 821.212 821.130 0.821212 2.327 
814 0.968 821.990 821.910 0.821990 2.338 
815 0.971 822.768 822.690 0.822768 2.348 
816 0.974 823.546 823.460 0.823546 2.359 
817 0.978 824.323 824.240 0.824323 2.370 
818 0.981 825.101 825.020 0.825101 2.381 
819 0.984 825.878 825.790 0.825878 2.392 
820 0.988 826.656 826.570 0.826656 2.404 
821 0.991 827.433 827.350 0.827433 2.415 
822 0.994 828.210 828.120 0.828210 2.427 
823 0.998 828.987 828.900 0.828987 2.439 
824 1.001 829.764 829.670 0.829764 2.451 
825 1.004 830.541 830.450 0.830541 2.463 
826 1.008 831.318 831.230 0.831318 2.475 
827 1.011 832.095 832.000 0.832095 2.488 
828 1.014 832.871 832.780 0.832871 2.500 
829 1.017 833.648 833.550 0.833648 2.513 
830 1.021 834.424 834.330 0.834424 2.526 
831 1.024 835.201 835.110 0.835201 2.539 
832 1.027 835.977 835.880 0.835977 2.552 
833 1.031 836.753 836.660 0.836753 2.566 
834 1.034 837.529 837.430 0.837529 2.580 
835 1.037 838.305 838.210 0.838305 2.593 
836 1.041 839.081 838.980 0.839081 2.607 
837 1.044 839.857 839.760 0.839857 2.621 
838 1.047 840.633 840.530 0.840633 2.635 
839 1.051 841.409 841.310 0.841409 2.650 
840 1.054 842.184 842.080 0.842184 2.664 
841 1.057 842.960 842.860 0.842960 2.679 
842 1.061 843.735 843.630 0.843735 2.694 
843 1.064 844.510 844.410 0.844510 2.709 
844 1.067 845.285 845.180 0.845285 2.724 
845 1.070 846.061 845.960 0.846061 2.739 
846 1.074 846.836 846.730 0.846836 2.755 
847 1.077 847.610 847.510 0.847610 2.770 
848 1.080 848.385 848.280 0.848385 2.786 
849 1.084 849.160 849.050 0.849160 2.802 
850 1.087 849.935 849.830 0.849935 2.818 
851 1.090 850.709 850.600 0.850709 2.834 
852 1.094 851.484 851.380 0.851484 2.851 
853 1.097 852.258 852.150 0.852258 2.867 
854 1.100 853.032 852.920 0.853032 2.884 
855 1.104 853.806 853.700 0.853806 2.901 
856 1.107 854.581 854.470 0.854581 2.918 
857 1.110 855.354 855.250 0.855354 2.935 
858 1.114 856.128 856.020 0.856128 2.953 
859 1.117 856.902 856.790 0.856902 2.970 
860 1.120 857.676 857.570 0.857676 2.988 
861 1.124 858.449 858.340 0.858449 3.006 
862 1.127 859.223 859.110 0.859223 3.024 
863 1.130 859.996 859.880 0.859996 3.042 
864 1.133 860.770 860.660 0.860770 3.060 
865 1.137 861.543 861.430 0.861543 3.078 
866 1.140 862.316 862.200 0.862316 3.097 
867 1.143 863.089 862.980 0.863089 3.116 
868 1.147 863.862 863.750 0.863862 3.134 
869 1.150 864.635 864.520 0.864635 3.154 
870 1.153 865.408 865.290 0.865408 3.173 
871 1.157 866.180 866.070 0.866180 3.192 
872 1.160 866.953 866.840 0.866953 3.212 
873 1.163 867.725 867.610 0.867725 3.231 
874 1.167 868.498 868.380 0.868498 3.251 
875 1.170 869.270 869.150 0.869270 3.271 
876 1.173 870.042 869.930 0.870042 3.291 
877 1.177 870.814 870.700 0.870814 3.311 
878 1.180 871.586 871.470 0.871586 3.332 
879 1.183 872.358 872.240 0.872358 3.352 
880 1.186 873.130 873.010 0.873130 3.373 
881 1.190 873.901 873.780 0.873901 3.394 
882 1.193 874.673 874.550 0.874673 3.415 
883 1.196 875.444 875.330 0.875444 3.436 
884 1.200 876.216 876.100 0.876216 3.457 
885 1.203 876.987 876.870 0.876987 3.478 
886 1.206 877.758 877.640 0.877758 3.500 
887 1.210 878.529 878.410 0.878529 3.522 
888 1.213 879.300 879.180 0.879300 3.544 
889 1.216 880.071 879.950 0.880071 3.566 
890 1.220 880.842 880.720 0.880842 3.588 
891 1.223 881.613 881.490 0.881613 3.610 
892 1.226 882.383 882.260 0.882383 3.632 
893 1.230 883.154 883.030 0.883154 3.655 
894 1.233 883.924 883.800 0.883924 3.678 
895 1.236 884.694 884.570 0.884694 3.701 
896 1.240 885.465 885.340 0.885465 3.723 
897 1.243 886.235 886.110 0.886235 3.747 
898 1.246 887.005 886.880 0.887005 3.770 
899 1.249 887.775 887.650 0.887775 3.793 
900 1.253 888.545 888.420 0.888545 3.817 
901 1.256 889.314 889.190 0.889314 3.841 
902 1.259 890.084 889.960 0.890084 3.864 
903 1.263 890.853 890.730 0.890853 3.888 
904 1.266 891.623 891.500 0.891623 3.912 
905 1.269 892.392 892.270 0.892392 3.937 
906 1.273 893.161 893.040 0.893161 3.961 
907 1.276 893.930 893.810 0.893930 3.986 
908 1.279 894.699 894.580 0.894699 4.010 
909 1.283 895.468 895.350 0.895468 4.035 
910 1.286 896.237 896.120 0.896237 4.060 
911 1.289 897.006 896.890 0.897006 4.085 
912 1.293 897.775 897.650 0.897775 4.110 
913 1.296 898.543 898.420 0.898543 4.135 
914 1.299 899.311 899.190 0.899311 4.161 
915 1.302 900.080 899.960 0.900080 4.186 
916 1.306 900.848 900.730 0.900848 4.212 
917 1.309 901.616 901.500 0.901616 4.238 
918 1.312 902.384 902.260 0.902384 4.264 
919 1.316 903.152 903.030 0.903152 4.290 
920 1.319 903.920 903.800 0.903920 4.316 
921 1.322 904.688 904.570 0.904688 4.342 
922 1.326 905.455 905.340 0.905455 4.368 
923 1.329 906.223 906.100 0.906223 4.395 
924 1.332 906.990 906.870 0.906990 4.422 
925 1.336 907.757 907.640 0.907757 4.448 
926 1.339 908.525 908.410 0.908525 4.475 
927 1.342 909.292 909.170 0.909292 4.502 
928 1.346 910.059 909.940 0.910059 4.529 
929 1.349 910.826 910.710 0.910826 4.557 
930 1.352 911.593 911.480 0.911593 4.584 
931 1.355 912.359 912.240 0.912359 4.612 
932 1.359 913.126 913.010 0.913126 4.639 
933 1.362 913.892 913.780 0.913892 4.667 
934 1.365 914.659 914.540 0.914659 4.695 
935 1.369 915.425 915.310 0.915425 4.722 
936 1.372 916.191 916.080 0.916191 4.751 
937 1.375 916.958 916.840 0.916958 4.779 
938 1.379 917.724 917.610 0.917724 4.807 
939 1.382 918.490 918.370 0.918490 4.835 
940 1.385 919.255 919.140 0.919255 4.864 
941 1.389 920.021 919.910 0.920021 4.892 
942 1.392 920.787 920.670 0.920787 4.921 
943 1.395 921.552 921.440 0.921552 4.950 
944 1.399 922.318 922.200 0.922318 4.978 
945 1.402 923.083 922.970 0.923083 5.007 
946 1.405 923.848 923.740 0.923848 5.036 
947 1.409 924.613 924.500 0.924613 5.066 
948 1.412 925.378 925.270 0.925378 5.095 
949 1.415 926.143 926.030 0.926143 5.124 
950 1.418 926.908 926.800 0.926908 5.154 
951 1.422 927.673 927.560 0.927673 5.183 
952 1.425 928.437 928.330 0.928437 5.213 
953 1.428 929.202 929.090 0.929202 5.243 
954 1.432 929.966 929.860 0.929966 5.272 
955 1.435 930.731 930.620 0.930731 5.302 
956 1.438 931.495 931.390 0.931495 5.332 
957 1.442 932.259 932.150 0.932259 5.362 
958 1.445 933.023 932.910 0.933023 5.392 
959 1.448 933.787 933.680 0.933787 5.423 
960 1.452 934.551 934.440 0.934551 5.453 
961 1.455 935.315 935.210 0.935315 5.483 
962 1.458 936.078 935.970 0.936078 5.514 
963 1.462 936.842 936.740 0.936842 5.544 
964 1.465 937.605 937.500 0.937605 5.575 
965 1.468 938.368 938.260 0.938368 5.606 
966 1.471 939.132 939.030 0.939132 5.636 
967 1.475 939.895 939.790 0.939895 5.667 
968 1.478 940.658 940.550 0.940658 5.698 
969 1.481 941.421 941.320 0.941421 5.729 
970 1.485 942.184 942.080 0.942184 5.760 
971 1.488 942.946 942.840 0.942946 5.791 
972 1.491 943.709 943.610 0.943709 5.822 
973 1.495 944.472 944.370 0.944472 5.854 
974 1.498 945.234 945.130 0.945234 5.885 
975 1.501 945.996 945.900 0.945996 5.916 
976 1.505 946.759 946.660 0.946759 5.948 
977 1.508 947.521 947.420 0.947521 5.979 
978 1.511 948.283 948.180 0.948283 6.011 
979 1.515 949.045 948.950 0.949045 6.042 
980 1.518 949.807 949.710 0.949807 6.074 
981 1.521 950.568 950.470 0.950568 6.106 
982 1.525 951.330 951.230 0.951330 6.137 
983 1.528 952.092 951.990 0.952092 6.169 
984 1.531 952.853 952.760 0.952853 6.201 
985 1.534 953.614 953.520 0.953614 6.233 
986 1.538 954.376 954.280 0.954376 6.265 
987 1.541 955.137 955.040 0.955137 6.297 
988 1.544 955.898 955.800 0.955898 6.329 
989 1.548 956.659 956.560 0.956659 6.361 
990 1.551 957.420 957.330 0.957420 6.393 
991 1.554 958.181 958.090 0.958181 6.425 
992 1.558 958.941 958.850 0.958941 6.457 
993 1.561 959.702 959.610 0.959702 6.489 
994 1.564 960.463 960.370 0.960463 6.522 
995 1.568 961.223 961.130 0.961223 6.554 
996 1.571 961.983 961.890 0.961983 6.586 
997 1.574 962.744 962.650 0.962744 6.618 
998 1.578 963.504 963.410 0.963504 6.651 
999 1.581 964.264 964.170 0.964264 6.683 
1000 1.584 965.024 964.930 0.965024 6.715 
1001 1.587 965.784 965.690 0.965784 6.748 
1002 1.591 966.543 966.450 0.966543 6.780 
1003 1.594 967.303 967.210 0.967303 6.813 
1004 1.597 968.063 967.970 0.968063 6.845 
1005 1.601 968.822 968.730 0.968822 6.877 
1006 1.604 969.581 969.490 0.969581 6.910 
1007 1.607 970.341 970.250 0.970341 6.942 
1008 1.611 971.100 971.010 0.971100 6.975 
1009 1.614 971.859 971.770 0.971859 7.007 
1010 1.617 972.618 972.530 0.972618 7.040 
1011 1.621 973.377 973.290 0.973377 7.072 
1012 1.624 974.136 974.050 0.974136 7.105 
1013 1.627 974.895 974.810 0.974895 7.137 
1014 1.631 975.653 975.570 0.975653 7.170 
1015 1.634 976.412 976.330 0.976412 7.202 
1016 1.637 977.170 977.090 0.977170 7.234 
1017 1.641 977.929 977.850 0.977929 7.267 
1018 1.644 978.687 978.600 0.978687 7.299 
1019 1.647 979.445 979.360 0.979445 7.332 
1020 1.650 980.203 980.120 0.980203 7.364 
1021 1.654 980.961 980.880 0.980961 7.396 
1022 1.657 981.719 981.640 0.981719 7.429 
1023 1.660 982.477 982.390 0.982477 7.461 
1024 1.664 983.235 983.150 0.983235 7.493 
1025 1.667 983.993 983.910 0.983993 7.525 
1026 1.670 984.750 984.670 0.984750 7.558 
1027 1.674 985.508 985.430 0.985508 7.590 
1028 1.677 986.265 986.180 0.986265 7.622 
1029 1.680 987.022 986.940 0.987022 7.654 
1030 1.684 987.780 987.700 0.987780 7.686 
1031 1.687 988.537 988.460 0.988537 7.718 
1032 1.690 989.294 989.210 0.989294 7.750 
1033 1.694 990.051 989.970 0.990051 7.782 
1034 1.697 990.808 990.730 0.990808 7.814 
1035 1.700 991.564 991.480 0.991564 7.846 
1036 1.703 992.321 992.240 0.992321 7.878 
1037 1.707 993.078 993.000 0.993078 7.909 
1038 1.710 993.834 993.750 0.993834 7.941 
1039 1.713 994.591 994.510 0.994591 7.973 
1040 1.717 995.347 995.270 0.995347 8.004 
1041 1.720 996.104 996.020 0.996104 8.036 
1042 1.723 996.860 996.780 0.996860 8.067 
1043 1.727 997.616 997.540 0.997616 8.098 
1044 1.730 998.372 998.290 0.998372 8.130 
